Folder: FTIR/data

File: FTIR_ATR_After TGA 30-300C 10K-min_02.dpt
4497.74,0.02212
4484.24,0.02209
4470.74,0.02198
4457.24,0.02182
4443.74,0.02179
4430.24,0.02162
4416.73,0.02151
4403.23,0.02141
4389.73,0.02133
4376.23,0.02124
4362.73,0.02116
4349.23,0.02103
4335.73,0.02098
4322.23,0.02085
4308.73,0.02078
4295.23,0.02071
4281.72,0.02058
4268.22,0.02054
4254.72,0.02042
4241.22,0.02039
4227.72,0.02032
4214.22,0.02028
4200.72,0.02026
4187.22,0.02024
4173.72,0.02017
4160.22,0.01999
4146.72,0.02001
4133.21,0.01989
4119.71,0.01982
4106.21,0.01971
4092.71,0.01965
4079.21,0.01964
4065.71,0.01952
4052.21,0.01946
4038.71,0.01938
4025.21,0.01923
4011.71,0.01906
3998.21,0.01899
3984.7,0.01890
3971.2,0.01874
3957.7,0.01868
3944.2,0.01861
3930.7,0.01851
3917.2,0.01852
3903.7,0.01868
3890.2,0.01867
3876.7,0.01848
3863.2,0.01836
3849.7,0.01828
3836.19,0.01809
3822.69,0.01777
3809.19,0.01748
3795.69,0.01727
3782.19,0.01709
3768.69,0.01697
3755.19,0.01690
3741.69,0.01675
3728.19,0.01648
3714.69,0.01621
3701.18,0.01588
3687.68,0.01588
3674.18,0.01576
3660.68,0.01507
3647.18,0.01518
3633.68,0.01484
3620.18,0.01490
3606.68,0.01473
3593.18,0.01441
3579.68,0.01412
3566.18,0.01406
3552.67,0.01374
3539.17,0.01362
3525.67,0.01430
3512.17,0.01599
3498.67,0.01902
3485.17,0.02493
3471.67,0.05486
3458.17,0.04378
3444.67,0.03344
3431.17,0.03602
3417.67,0.05579
3404.16,0.04558
3390.66,0.04186
3377.16,0.04575
3363.66,0.05411
3350.16,0.06606
3336.66,0.07764
3323.16,0.08211
3309.66,0.07921
3296.16,0.07427
3282.66,0.07022
3269.15,0.06748
3255.65,0.06650
3242.15,0.06776
3228.65,0.07185
3215.15,0.07840
3201.65,0.08545
3188.15,0.09090
3174.65,0.09453
3161.15,0.09985
3147.65,0.10923
3134.15,0.11885
3120.64,0.12132
3107.14,0.11726
3093.64,0.11175
3080.14,0.10577
3066.64,0.09972
3053.14,0.09396
3039.64,0.08857
3026.14,0.08362
3012.64,0.07912
2999.14,0.07512
2985.64,0.07189
2972.13,0.06914
2958.63,0.06581
2945.13,0.06247
2931.63,0.05882
2918.13,0.05537
2904.63,0.05340
2891.13,0.05151
2877.63,0.05035
2864.13,0.04980
2850.63,0.04931
2837.12,0.04987
2823.62,0.04947
2810.12,0.04818
2796.62,0.04630
2783.12,0.04452
2769.62,0.04319
2756.12,0.04199
2742.62,0.04101
2729.12,0.03956
2715.62,0.03891
2702.12,0.03877
2688.61,0.03869
2675.11,0.03804
2661.61,0.03696
2648.11,0.03623
2634.61,0.03558
2621.11,0.03497
2607.61,0.03439
2594.11,0.03383
2580.61,0.03346
2567.11,0.03317
2553.61,0.03265
2540.1,0.03200
2526.6,0.03141
2513.1,0.03092
2499.6,0.03058
2486.1,0.02992
2472.6,0.02932
2459.1,0.02856
2445.6,0.02782
2432.1,0.02709
2418.6,0.02630
2405.1,0.02547
2391.59,0.02489
2378.09,0.02505
2364.59,0.02790
2351.09,0.02555
2337.59,0.02725
2324.09,0.02759
2310.59,0.02560
2297.09,0.02526
2283.59,0.02620
2270.09,0.02648
2256.58,0.02725
2243.08,0.02814
2229.58,0.02928
2216.08,0.03010
2202.58,0.03108
2189.08,0.03201
2175.58,0.03127
2162.08,0.03300
2148.58,0.02742
2135.08,0.02450
2121.58,0.02306
2108.07,0.02267
2094.57,0.02111
2081.07,0.02121
2067.57,0.02134
2054.07,0.02173
2040.57,0.02268
2027.07,0.02203
2013.57,0.02084
2000.07,0.01867
1986.57,0.01861
1973.07,0.01759
1959.56,0.01543
1946.06,0.01405
1932.56,0.01262
1919.06,0.01184
1905.56,0.01095
1892.06,0.01025
1878.56,0.00963
1865.06,0.00912
1851.56,0.00860
1838.06,0.00805
1824.55,0.00769
1811.05,0.00706
1797.55,0.00702
1784.05,0.00732
1770.55,0.00806
1757.05,0.00791
1743.55,0.00803
1730.05,0.00921
1716.55,0.01244
1703.05,0.01752
1689.55,0.02641
1676.04,0.04850
1662.54,0.08643
1649.04,0.12364
1635.54,0.13452
1622.04,0.14911
1608.54,0.13310
1595.04,0.12817
1581.54,0.15572
1568.04,0.16964
1554.54,0.19572
1541.04,0.21831
1527.53,0.21846
1514.03,0.19204
1500.53,0.15758
1487.03,0.13586
1473.53,0.15837
1460.03,0.17881
1446.53,0.19547
1433.03,0.24456
1419.53,0.23199
1406.03,0.21094
1392.52,0.19053
1379.02,0.17376
1365.52,0.17858
1352.02,0.18483
1338.52,0.18468
1325.02,0.18449
1311.52,0.18027
1298.02,0.16972
1284.52,0.15584
1271.02,0.15036
1257.52,0.14766
1244.01,0.14100
1230.51,0.13363
1217.01,0.12702
1203.51,0.12834
1190.01,0.13261
1176.51,0.13164
1163.01,0.12377
1149.51,0.11525
1136.01,0.11000
1122.51,0.10673
1109.01,0.11074
1095.5,0.10620
1082,0.10181
1068.5,0.09768
1055,0.09508
1041.5,0.10582
1028,0.13531
1014.5,0.13270
1001,0.11616
987.497,0.10545
973.996,0.09783
960.495,0.09131
946.994,0.08653
933.493,0.08224
919.992,0.07946
906.491,0.07790
892.99,0.07735
879.489,0.07793
865.989,0.07769
852.488,0.07681
838.987,0.07888
825.486,0.09778
811.985,0.20836
798.484,0.16940
784.983,0.13631
771.482,0.13677
757.981,0.13285
744.48,0.12070
730.979,0.13500
717.478,0.13378
703.977,0.13457
690.476,0.13683
676.975,0.14365
663.474,0.14715
649.974,0.15206
636.473,0.16315
622.972,0.17861
609.471,0.19375
599.827,0.18211

File: FTIR_ATR_After TGA 30-300°C 10K-min_01.dpt
4497.74,0.02183
4484.24,0.02186
4470.74,0.02175
4457.24,0.02163
4443.74,0.02155
4430.24,0.02140
4416.73,0.02137
4403.23,0.02124
4389.73,0.02116
4376.23,0.02110
4362.73,0.02105
4349.23,0.02093
4335.73,0.02088
4322.23,0.02071
4308.73,0.02067
4295.23,0.02057
4281.72,0.02057
4268.22,0.02044
4254.72,0.02041
4241.22,0.02037
4227.72,0.02026
4214.22,0.02025
4200.72,0.02022
4187.22,0.02021
4173.72,0.02010
4160.22,0.01997
4146.72,0.01997
4133.21,0.01987
4119.71,0.01982
4106.21,0.01976
4092.71,0.01968
4079.21,0.01962
4065.71,0.01954
4052.21,0.01949
4038.71,0.01940
4025.21,0.01926
4011.71,0.01911
3998.21,0.01905
3984.7,0.01895
3971.2,0.01882
3957.7,0.01878
3944.2,0.01869
3930.7,0.01858
3917.2,0.01854
3903.7,0.01874
3890.2,0.01877
3876.7,0.01856
3863.2,0.01841
3849.7,0.01832
3836.19,0.01819
3822.69,0.01793
3809.19,0.01769
3795.69,0.01749
3782.19,0.01731
3768.69,0.01719
3755.19,0.01713
3741.69,0.01703
3728.19,0.01678
3714.69,0.01648
3701.18,0.01621
3687.68,0.01617
3674.18,0.01606
3660.68,0.01546
3647.18,0.01547
3633.68,0.01515
3620.18,0.01520
3606.68,0.01495
3593.18,0.01463
3579.68,0.01431
3566.18,0.01420
3552.67,0.01386
3539.17,0.01370
3525.67,0.01416
3512.17,0.01561
3498.67,0.01814
3485.17,0.02336
3471.67,0.05037
3458.17,0.04041
3444.67,0.03096
3431.17,0.03326
3417.67,0.05140
3404.16,0.04153
3390.66,0.03842
3377.16,0.04197
3363.66,0.04958
3350.16,0.06045
3336.66,0.07122
3323.16,0.07560
3309.66,0.07323
3296.16,0.06882
3282.66,0.06524
3269.15,0.06277
3255.65,0.06182
3242.15,0.06293
3228.65,0.06666
3215.15,0.07263
3201.65,0.07926
3188.15,0.08445
3174.65,0.08775
3161.15,0.09262
3147.65,0.10128
3134.15,0.11027
3120.64,0.11279
3107.14,0.10921
3093.64,0.10420
3080.14,0.09883
3066.64,0.09331
3053.14,0.08812
3039.64,0.08327
3026.14,0.07878
3012.64,0.07469
2999.14,0.07097
2985.64,0.06801
2972.13,0.06543
2958.63,0.06234
2945.13,0.05934
2931.63,0.05596
2918.13,0.05278
2904.63,0.05103
2891.13,0.04928
2877.63,0.04823
2864.13,0.04765
2850.63,0.04713
2837.12,0.04774
2823.62,0.04741
2810.12,0.04622
2796.62,0.04456
2783.12,0.04291
2769.62,0.04166
2756.12,0.04058
2742.62,0.03969
2729.12,0.03839
2715.62,0.03778
2702.12,0.03762
2688.61,0.03753
2675.11,0.03698
2661.61,0.03607
2648.11,0.03544
2634.61,0.03484
2621.11,0.03429
2607.61,0.03380
2594.11,0.03323
2580.61,0.03285
2567.11,0.03261
2553.61,0.03210
2540.1,0.03153
2526.6,0.03101
2513.1,0.03058
2499.6,0.03024
2486.1,0.02964
2472.6,0.02909
2459.1,0.02841
2445.6,0.02774
2432.1,0.02694
2418.6,0.02625
2405.1,0.02546
2391.59,0.02490
2378.09,0.02512
2364.59,0.02812
2351.09,0.02563
2337.59,0.02739
2324.09,0.02758
2310.59,0.02563
2297.09,0.02523
2283.59,0.02609
2270.09,0.02632
2256.58,0.02696
2243.08,0.02767
2229.58,0.02865
2216.08,0.02944
2202.58,0.03041
2189.08,0.03135
2175.58,0.03068
2162.08,0.03231
2148.58,0.02709
2135.08,0.02442
2121.58,0.02312
2108.07,0.02272
2094.57,0.02133
2081.07,0.02145
2067.57,0.02151
2054.07,0.02198
2040.57,0.02297
2027.07,0.02214
2013.57,0.02094
2000.07,0.01918
1986.57,0.01906
1973.07,0.01778
1959.56,0.01586
1946.06,0.01469
1932.56,0.01330
1919.06,0.01245
1905.56,0.01164
1892.06,0.01080
1878.56,0.01025
1865.06,0.00971
1851.56,0.00911
1838.06,0.00855
1824.55,0.00813
1811.05,0.00740
1797.55,0.00724
1784.05,0.00742
1770.55,0.00802
1757.05,0.00785
1743.55,0.00783
1730.05,0.00886
1716.55,0.01183
1703.05,0.01681
1689.55,0.02568
1676.04,0.04780
1662.54,0.08587
1649.04,0.12176
1635.54,0.13271
1622.04,0.14729
1608.54,0.13017
1595.04,0.12645
1581.54,0.15530
1568.04,0.16918
1554.54,0.19560
1541.04,0.21894
1527.53,0.22014
1514.03,0.19206
1500.53,0.15592
1487.03,0.13294
1473.53,0.15655
1460.03,0.17753
1446.53,0.19640
1433.03,0.24910
1419.53,0.23638
1406.03,0.21412
1392.52,0.19255
1379.02,0.17491
1365.52,0.17940
1352.02,0.18548
1338.52,0.18540
1325.02,0.18574
1311.52,0.18217
1298.02,0.17223
1284.52,0.15829
1271.02,0.15233
1257.52,0.14965
1244.01,0.14324
1230.51,0.13587
1217.01,0.12897
1203.51,0.12968
1190.01,0.13411
1176.51,0.13310
1163.01,0.12536
1149.51,0.11676
1136.01,0.11137
1122.51,0.10780
1109.01,0.11135
1095.5,0.10683
1082,0.10245
1068.5,0.09818
1055,0.09534
1041.5,0.10549
1028,0.13602
1014.5,0.13396
1001,0.11737
987.497,0.10649
973.996,0.09896
960.495,0.09237
946.994,0.08755
933.493,0.08305
919.992,0.08023
906.491,0.07865
892.99,0.07803
879.489,0.07866
865.989,0.07858
852.488,0.07771
838.987,0.07986
825.486,0.09945
811.985,0.22112
798.484,0.17261
784.983,0.13793
771.482,0.13972
757.981,0.13644
744.48,0.12355
730.979,0.13919
717.478,0.13824
703.977,0.13890
690.476,0.14163
676.975,0.14922
663.474,0.15320
649.974,0.15935
636.473,0.17138
622.972,0.18899
609.471,0.20467
599.827,0.19168

File: FTIR_ATR_DICY Powder_01.dpt
4497.74,0.02178
4484.24,0.02174
4470.74,0.02150
4457.24,0.02137
4443.74,0.02123
4430.24,0.02110
4416.73,0.02109
4403.23,0.02099
4389.73,0.02075
4376.23,0.02071
4362.73,0.02069
4349.23,0.02059
4335.73,0.02053
4322.23,0.02037
4308.73,0.02040
4295.23,0.02032
4281.72,0.02016
4268.22,0.02009
4254.72,0.01998
4241.22,0.01994
4227.72,0.01989
4214.22,0.01975
4200.72,0.01968
4187.22,0.01959
4173.72,0.01951
4160.22,0.01939
4146.72,0.01938
4133.21,0.01924
4119.71,0.01925
4106.21,0.01916
4092.71,0.01909
4079.21,0.01900
4065.71,0.01887
4052.21,0.01875
4038.71,0.01867
4025.21,0.01854
4011.71,0.01843
3998.21,0.01836
3984.7,0.01822
3971.2,0.01812
3957.7,0.01807
3944.2,0.01784
3930.7,0.01753
3917.2,0.01717
3903.7,0.01582
3890.2,0.01652
3876.7,0.01689
3863.2,0.01596
3849.7,0.01552
3836.19,0.01428
3822.69,0.01482
3809.19,0.01563
3795.69,0.01577
3782.19,0.01589
3768.69,0.01512
3755.19,0.01437
3741.69,0.01361
3728.19,0.01484
3714.69,0.01422
3701.18,0.01442
3687.68,0.01226
3674.18,0.01096
3660.68,0.01358
3647.18,0.01091
3633.68,0.01220
3620.18,0.01099
3606.68,0.01092
3593.18,0.01070
3579.68,0.01041
3566.18,0.00882
3552.67,0.00919
3539.17,0.00890
3525.67,0.00847
3512.17,0.00893
3498.67,0.00975
3485.17,0.01168
3471.67,0.01612
3458.17,0.02455
3444.67,0.04498
3431.17,0.07722
3417.67,0.08838
3404.16,0.08349
3390.66,0.09052
3377.16,0.10806
3363.66,0.10893
3350.16,0.10574
3336.66,0.12426
3323.16,0.12676
3309.66,0.11194
3296.16,0.10083
3282.66,0.09067
3269.15,0.08123
3255.65,0.08038
3242.15,0.08659
3228.65,0.08575
3215.15,0.09073
3201.65,0.10318
3188.15,0.11747
3174.65,0.12128
3161.15,0.12756
3147.65,0.14099
3134.15,0.13794
3120.64,0.12114
3107.14,0.10378
3093.64,0.09156
3080.14,0.08465
3066.64,0.07562
3053.14,0.06894
3039.64,0.06429
3026.14,0.06075
3012.64,0.05736
2999.14,0.05405
2985.64,0.05102
2972.13,0.04798
2958.63,0.04527
2945.13,0.04414
2931.63,0.04396
2918.13,0.04390
2904.63,0.04419
2891.13,0.04091
2877.63,0.03796
2864.13,0.03612
2850.63,0.03437
2837.12,0.03464
2823.62,0.03424
2810.12,0.03366
2796.62,0.03365
2783.12,0.03474
2769.62,0.03697
2756.12,0.03875
2742.62,0.03882
2729.12,0.03761
2715.62,0.03563
2702.12,0.03366
2688.61,0.03171
2675.11,0.03044
2661.61,0.03015
2648.11,0.02984
2634.61,0.02906
2621.11,0.02861
2607.61,0.02915
2594.11,0.02936
2580.61,0.02870
2567.11,0.02775
2553.61,0.02634
2540.1,0.02553
2526.6,0.02571
2513.1,0.02668
2499.6,0.02674
2486.1,0.02789
2472.6,0.02910
2459.1,0.02830
2445.6,0.02604
2432.1,0.02373
2418.6,0.02192
2405.1,0.02077
2391.59,0.02039
2378.09,0.02251
2364.59,0.02860
2351.09,0.02387
2337.59,0.02246
2324.09,0.02097
2310.59,0.01761
2297.09,0.01641
2283.59,0.01678
2270.09,0.01721
2256.58,0.01676
2243.08,0.01723
2229.58,0.02425
2216.08,0.07965
2202.58,0.13690
2189.08,0.10322
2175.58,0.10352
2162.08,0.18202
2148.58,0.16781
2135.08,0.13224
2121.58,0.10633
2108.07,0.09669
2094.57,0.08078
2081.07,0.07202
2067.57,0.06613
2054.07,0.06232
2040.57,0.06243
2027.07,0.06017
2013.57,0.05483
2000.07,0.04969
1986.57,0.04725
1973.07,0.04402
1959.56,0.03975
1946.06,0.03650
1932.56,0.03334
1919.06,0.03042
1905.56,0.02841
1892.06,0.02617
1878.56,0.02471
1865.06,0.02551
1851.56,0.02255
1838.06,0.01998
1824.55,0.01758
1811.05,0.01579
1797.55,0.01472
1784.05,0.01537
1770.55,0.01616
1757.05,0.01609
1743.55,0.01261
1730.05,0.01062
1716.55,0.00774
1703.05,0.00908
1689.55,0.01477
1676.04,0.04187
1662.54,0.09425
1649.04,0.12970
1635.54,0.20427
1622.04,0.20555
1608.54,0.15061
1595.04,0.13651
1581.54,0.15852
1568.04,0.18002
1554.54,0.18613
1541.04,0.15923
1527.53,0.14153
1514.03,0.17969
1500.53,0.22613
1487.03,0.17017
1473.53,0.14794
1460.03,0.13425
1446.53,0.12741
1433.03,0.11799
1419.53,0.10479
1406.03,0.09699
1392.52,0.09061
1379.02,0.08698
1365.52,0.08412
1352.02,0.08217
1338.52,0.08317
1325.02,0.08069
1311.52,0.07596
1298.02,0.07180
1284.52,0.06797
1271.02,0.06888
1257.52,0.13906
1244.01,0.14940
1230.51,0.12257
1217.01,0.11152
1203.51,0.10698
1190.01,0.10559
1176.51,0.10431
1163.01,0.10199
1149.51,0.10137
1136.01,0.10210
1122.51,0.10382
1109.01,0.11028
1095.5,0.12850
1082,0.12995
1068.5,0.12814
1055,0.12567
1041.5,0.12216
1028,0.11849
1014.5,0.11485
1001,0.11112
987.497,0.10636
973.996,0.10273
960.495,0.09920
946.994,0.09567
933.493,0.15367
919.992,0.14618
906.491,0.11061
892.99,0.09986
879.489,0.09219
865.989,0.08530
852.488,0.07929
838.987,0.07429
825.486,0.07015
811.985,0.06678
798.484,0.06419
784.983,0.06229
771.482,0.06291
757.981,0.06999
744.48,0.07303
730.979,0.06946
717.478,0.10085
703.977,0.07410
690.476,0.07301
676.975,0.09140
663.474,0.14084
649.974,0.09043
636.473,0.09231
622.972,0.10320
609.471,0.12273
599.827,0.13688

File: FTIR_ATR_DICY Powder_02.dpt
4497.74,0.01858
4484.24,0.01846
4470.74,0.01830
4457.24,0.01818
4443.74,0.01796
4430.24,0.01793
4416.73,0.01783
4403.23,0.01777
4389.73,0.01758
4376.23,0.01748
4362.73,0.01752
4349.23,0.01741
4335.73,0.01734
4322.23,0.01720
4308.73,0.01723
4295.23,0.01718
4281.72,0.01703
4268.22,0.01695
4254.72,0.01683
4241.22,0.01679
4227.72,0.01673
4214.22,0.01663
4200.72,0.01659
4187.22,0.01648
4173.72,0.01638
4160.22,0.01632
4146.72,0.01634
4133.21,0.01623
4119.71,0.01620
4106.21,0.01611
4092.71,0.01610
4079.21,0.01601
4065.71,0.01587
4052.21,0.01578
4038.71,0.01575
4025.21,0.01566
4011.71,0.01557
3998.21,0.01549
3984.7,0.01530
3971.2,0.01526
3957.7,0.01522
3944.2,0.01499
3930.7,0.01476
3917.2,0.01432
3903.7,0.01301
3890.2,0.01377
3876.7,0.01411
3863.2,0.01324
3849.7,0.01286
3836.19,0.01160
3822.69,0.01215
3809.19,0.01302
3795.69,0.01320
3782.19,0.01333
3768.69,0.01263
3755.19,0.01190
3741.69,0.01117
3728.19,0.01249
3714.69,0.01186
3701.18,0.01219
3687.68,0.01009
3674.18,0.00892
3660.68,0.01151
3647.18,0.00895
3633.68,0.01035
3620.18,0.00922
3606.68,0.00933
3593.18,0.00922
3579.68,0.00906
3566.18,0.00759
3552.67,0.00809
3539.17,0.00798
3525.67,0.00768
3512.17,0.00823
3498.67,0.00920
3485.17,0.01127
3471.67,0.01583
3458.17,0.02454
3444.67,0.04576
3431.17,0.07867
3417.67,0.08856
3404.16,0.08268
3390.66,0.09026
3377.16,0.10856
3363.66,0.10956
3350.16,0.10633
3336.66,0.12466
3323.16,0.12646
3309.66,0.11065
3296.16,0.09909
3282.66,0.08857
3269.15,0.07887
3255.65,0.07827
3242.15,0.08465
3228.65,0.08363
3215.15,0.08881
3201.65,0.10171
3188.15,0.11648
3174.65,0.12013
3161.15,0.12679
3147.65,0.14058
3134.15,0.13689
3120.64,0.11882
3107.14,0.10044
3093.64,0.08763
3080.14,0.08023
3066.64,0.07082
3053.14,0.06403
3039.64,0.05934
3026.14,0.05579
3012.64,0.05240
2999.14,0.04908
2985.64,0.04609
2972.13,0.04307
2958.63,0.04040
2945.13,0.03941
2931.63,0.03931
2918.13,0.03933
2904.63,0.03962
2891.13,0.03623
2877.63,0.03329
2864.13,0.03149
2850.63,0.02976
2837.12,0.03015
2823.62,0.02987
2810.12,0.02939
2796.62,0.02952
2783.12,0.03076
2769.62,0.03321
2756.12,0.03501
2742.62,0.03504
2729.12,0.03379
2715.62,0.03170
2702.12,0.02964
2688.61,0.02773
2675.11,0.02650
2661.61,0.02623
2648.11,0.02588
2634.61,0.02513
2621.11,0.02481
2607.61,0.02532
2594.11,0.02558
2580.61,0.02494
2567.11,0.02411
2553.61,0.02277
2540.1,0.02208
2526.6,0.02238
2513.1,0.02345
2499.6,0.02356
2486.1,0.02479
2472.6,0.02597
2459.1,0.02514
2445.6,0.02301
2432.1,0.02085
2418.6,0.01926
2405.1,0.01831
2391.59,0.01815
2378.09,0.02062
2364.59,0.02778
2351.09,0.02226
2337.59,0.02164
2324.09,0.02015
2310.59,0.01653
2297.09,0.01547
2283.59,0.01611
2270.09,0.01683
2256.58,0.01655
2243.08,0.01740
2229.58,0.02515
2216.08,0.08297
2202.58,0.14232
2189.08,0.10503
2175.58,0.10759
2162.08,0.19159
2148.58,0.17282
2135.08,0.12861
2121.58,0.09985
2108.07,0.08896
2094.57,0.07256
2081.07,0.06430
2067.57,0.05877
2054.07,0.05556
2040.57,0.05621
2027.07,0.05424
2013.57,0.04895
2000.07,0.04379
1986.57,0.04154
1973.07,0.03863
1959.56,0.03500
1946.06,0.03164
1932.56,0.02881
1919.06,0.02608
1905.56,0.02439
1892.06,0.02251
1878.56,0.02147
1865.06,0.02235
1851.56,0.01968
1838.06,0.01747
1824.55,0.01540
1811.05,0.01406
1797.55,0.01329
1784.05,0.01420
1770.55,0.01501
1757.05,0.01517
1743.55,0.01203
1730.05,0.01030
1716.55,0.00759
1703.05,0.00909
1689.55,0.01511
1676.04,0.04316
1662.54,0.09864
1649.04,0.13174
1635.54,0.21288
1622.04,0.21160
1608.54,0.14943
1595.04,0.13519
1581.54,0.16255
1568.04,0.19087
1554.54,0.19666
1541.04,0.16333
1527.53,0.14093
1514.03,0.17963
1500.53,0.22618
1487.03,0.16758
1473.53,0.14378
1460.03,0.12901
1446.53,0.12177
1433.03,0.11101
1419.53,0.09705
1406.03,0.08918
1392.52,0.08306
1379.02,0.07984
1365.52,0.07736
1352.02,0.07583
1338.52,0.07730
1325.02,0.07477
1311.52,0.07042
1298.02,0.06686
1284.52,0.06404
1271.02,0.06706
1257.52,0.14244
1244.01,0.14600
1230.51,0.11658
1217.01,0.10537
1203.51,0.10099
1190.01,0.09980
1176.51,0.09864
1163.01,0.09639
1149.51,0.09609
1136.01,0.09716
1122.51,0.09947
1109.01,0.10714
1095.5,0.12605
1082,0.12625
1068.5,0.12372
1055,0.12091
1041.5,0.11705
1028,0.11324
1014.5,0.10938
1001,0.10543
987.497,0.10045
973.996,0.09662
960.495,0.09300
946.994,0.08936
933.493,0.15123
919.992,0.14091
906.491,0.10344
892.99,0.09228
879.489,0.08435
865.989,0.07725
852.488,0.07117
838.987,0.06636
825.486,0.06236
811.985,0.05923
798.484,0.05701
784.983,0.05558
771.482,0.05690
757.981,0.06432
744.48,0.06676
730.979,0.06392
717.478,0.09619
703.977,0.06859
690.476,0.06795
676.975,0.08769
663.474,0.13903
649.974,0.08651
636.473,0.08979
622.972,0.10257
609.471,0.12368
599.827,0.13970